Trial, dist, RT, interstim, Brightness, Response, NumberofLED
1,-45,610,794,15,1,1
2,45,0,404,15,0,2
3,-30,762,496,15,1,3
4,0,364,385,15,1,1
5,45,377,316,15,1,1
6,15,455,719,15,1,2
7,15,531,323,15,1,3
8,30,361,700,15,1,1
9,-60,397,337,15,1,3
10,-30,563,595,15,1,2
11,-45,586,757,15,1,2
12,-45,407,762,15,1,3
13,-15,550,366,15,1,2
14,30,593,354,15,1,1
15,0,346,397,15,1,1
16,-60,671,562,15,1,2
17,0,400,477,15,1,3
18,-60,634,665,15,1,3
19,45,884,322,15,1,3
20,15,436,350,15,1,2
21,60,933,301,15,1,2
22,15,410,485,15,1,1
23,15,398,557,15,1,1
24,-60,634,711,15,1,2
25,-15,500,652,15,1,3
26,-15,557,462,15,1,2
27,45,497,430,15,1,3
28,0,413,774,15,1,3
29,-45,609,602,15,1,2
30,-45,594,512,15,1,1
31,0,375,483,15,1,1
32,15,520,719,15,1,3
33,-45,688,592,15,-1,2
34,30,492,674,15,1,3
35,-15,377,776,15,1,3
36,15,468,571,15,1,2
37,-45,673,594,15,1,2
38,-60,490,317,15,1,3
39,-45,405,659,15,-1,1
40,60,613,674,15,-1,2
41,30,584,663,15,-1,3
42,-60,641,309,15,1,2
43,60,406,406,15,1,3
44,-15,389,428,15,1,3
45,-45,524,347,15,-1,2
46,-45,463,678,15,-1,2
47,60,490,382,15,1,1
48,60,973,580,15,1,2
49,15,414,580,15,1,1
50,0,431,647,15,1,2
51,15,409,498,15,1,3
52,60,0,402,15,0,2
53,-15,498,317,15,1,2
54,30,396,614,15,1,1
55,-15,441,795,15,1,1
56,60,541,672,15,1,1
57,0,416,344,15,1,2
58,15,339,654,15,-1,3
59,-30,451,420,15,1,2
60,-15,437,416,15,1,2
61,60,487,477,15,1,1
62,-15,660,392,15,1,3
63,15,416,328,15,1,3
64,-45,670,722,15,1,2
65,-60,569,535,15,1,1
66,60,569,702,15,1,1
67,30,794,468,15,1,3
68,15,452,410,15,1,2
69,-45,458,687,15,1,1
70,-45,467,361,15,1,1
71,45,365,467,15,1,1
72,-60,799,517,15,1,3
73,-30,919,505,15,1,3
74,-15,422,668,15,1,2
75,15,496,364,15,1,1
76,30,431,389,15,1,2
77,-30,475,456,15,1,2
78,-15,410,632,15,1,2
79,0,454,372,15,1,3
80,-45,0,586,15,0,2
81,-15,473,613,15,1,1
82,-30,414,427,15,1,1
83,-30,617,365,15,-1,2
84,-60,638,632,15,1,1
85,0,422,328,15,1,3
86,-45,521,784,15,1,3
87,-30,832,612,15,1,2
88,0,300,749,15,1,1
89,-45,381,651,15,1,3
90,-60,543,489,15,1,1
91,-60,830,439,15,1,3
92,45,0,328,15,0,3
93,-30,518,461,15,1,1
94,30,471,488,15,1,1
95,30,592,713,15,1,2
96,60,498,442,15,1,3
97,-15,577,441,15,1,3
98,15,467,627,15,1,1
99,-30,472,561,15,1,1
100,15,577,525,15,1,3
101,0,487,440,15,1,1
102,60,391,720,15,1,1
103,60,431,521,15,-1,2
104,-45,906,536,15,-1,2
105,30,586,511,15,1,3
106,30,506,492,15,1,3
107,-15,537,321,15,1,2
108,-60,397,424,15,1,1
109,-60,661,778,15,1,3
110,-15,422,627,15,1,1
111,-60,707,302,15,1,2
112,-60,326,424,15,1,1
113,-45,347,703,15,1,1
114,15,481,532,15,1,1
115,-15,288,685,15,1,1
116,15,296,715,15,1,1
117,15,532,747,15,1,2
118,45,305,566,15,1,1
119,-15,470,329,15,1,3
120,0,422,671,15,1,3
121,0,392,745,15,1,1
122,-15,410,513,15,1,3
123,-30,372,397,15,1,1
124,30,495,590,15,-1,2
125,-30,299,603,15,1,1
126,-45,670,351,15,1,2
127,0,415,355,15,1,1
128,0,446,687,15,1,2
129,60,456,674,15,1,3
130,60,625,757,15,1,2
131,30,0,337,15,0,2
132,60,477,698,15,1,1
133,-15,615,326,15,-1,3
134,0,439,377,15,1,3
135,-45,625,383,15,1,3
136,-60,608,453,15,1,3
137,-30,348,582,15,1,1
138,-30,462,737,15,1,3
139,-60,524,407,15,1,1
140,15,770,744,15,1,2
141,60,406,749,15,1,1
142,-45,300,463,15,1,1
143,-15,333,557,15,1,1
144,-30,241,367,15,-1,2
145,15,398,617,15,1,2
146,15,468,508,15,1,3
147,0,412,777,15,1,2
148,-30,346,542,15,1,1
149,0,334,772,15,1,2
150,30,423,582,15,1,1
151,-30,385,351,15,1,1
152,0,433,684,15,1,3
153,-30,532,669,15,1,2
154,-45,497,369,15,1,3
155,-45,456,319,15,1,1
156,-60,360,596,15,-1,2
157,-45,844,655,15,1,2
158,45,437,625,15,1,1
159,30,427,542,15,1,3
160,45,397,321,15,1,1
161,-45,550,364,15,1,3
162,-30,672,549,15,-1,2
163,15,332,679,15,1,1
164,-45,590,759,15,1,3
165,-45,468,377,15,1,1
166,-15,287,550,15,1,1
167,-30,315,792,15,1,1
168,15,488,303,15,1,3
169,45,777,495,15,1,2
170,-30,446,752,15,1,3
171,-60,358,662,15,1,1
172,-15,399,336,15,1,1
173,30,443,754,15,1,3
174,-30,464,488,15,1,1
175,15,410,656,15,1,3
176,-15,808,332,15,-1,3
177,45,520,630,15,1,3
178,60,393,582,15,1,1
179,-15,309,539,15,1,1
180,-60,373,498,15,1,1
181,-45,882,383,15,1,2
182,-60,371,576,15,1,1
183,-45,407,744,15,1,3
184,-30,618,555,15,1,2
185,15,358,541,15,1,1
186,15,407,491,15,1,2
187,60,515,489,15,1,3
188,-45,258,368,15,1,1
189,45,496,311,15,1,3
190,30,443,490,15,1,3
191,-60,316,355,15,1,1
192,-60,484,646,15,1,3
193,45,356,315,15,1,1
194,60,599,521,15,-1,2
195,-60,576,755,15,1,2
196,45,617,515,15,1,2
197,-60,409,662,15,1,1
198,60,321,304,15,1,1
199,-15,480,776,15,1,2
200,15,375,310,15,1,1
201,0,419,469,15,1,3
202,30,441,304,15,1,1
203,30,372,519,15,1,1
204,0,428,728,15,1,3
205,-45,492,557,15,1,1
206,0,417,551,15,1,3
207,-30,402,603,15,1,1
208,-45,393,484,15,-1,2
209,60,349,461,15,-1,2
210,45,694,660,15,1,3
211,30,514,591,15,1,1
212,15,357,642,15,1,1
213,-45,533,668,15,1,3
214,-45,0,742,15,0,2
215,30,684,378,15,1,2
216,0,553,650,15,1,1
217,-45,585,730,15,1,3
218,0,361,639,15,1,1
219,-15,423,369,15,1,1
220,30,609,539,15,-1,2
221,0,402,354,15,1,1
222,-30,510,536,15,1,2
223,60,719,351,15,1,3
224,-60,443,774,15,1,1
225,45,439,455,15,1,1
226,45,463,393,15,-1,2
227,-45,606,770,15,1,1
228,45,392,542,15,1,1
229,0,480,741,15,1,2
230,15,413,797,15,1,1
